Arquivo: c:\arq\medidas\BBA_2003_073142\BBA_AMP10B_V.dat
Data: 2003	 Hora:  0832
Comentário: 
NomeParametro	 ValorParametro
Nmedias	5
PausaCorretora	3000
PausaShunt	2000
PausaLeitura	500
NumCiclos	3
 NPassosCor	7
DeltaShunt	3.00
TetaIni	-0.20
TetaFim	0.20
I[mA]	  28.9
ACV01B	DeltaPos^2	AMP10B	AMP01B_0	AMP02A_0	AMP02B_0	AMP03A_0	AMP03B_0	AMP03C_0	AMP04A_0	AMP04B_0	AMP05A_0	AMP05B_0	AMP06A_0	AMP06B_0	AMP07A_0	AMP07B_0	AMP08A_0	AMP08B_0	AMP09A_0	AMP09B_0	AMP10A_0	AMP10B_0	AMU11A_0	AMU11B_0	AMP12A_0	AMP12B_0	AMP01A_0	AMP01B_1	AMP02A_1	AMP02B_1	AMP03A_1	AMP03B_1	AMP03C_1	AMP04A_1	AMP04B_1	AMP05A_1	AMP05B_1	AMP06A_1	AMP06B_1	AMP07A_1	AMP07B_1	AMP08A_1	AMP08B_1	AMP09A_1	AMP09B_1	AMP10A_1	AMP10B_1	AMU11A_1	AMU11B_1	AMP12A_1	AMP12B_1	AMP01A_1	
-0.2000	 1.06557700308746E-0003	-0.8401	-2.7246	-1.7975	-0.5297	0.0207	3.7070	3.5888	1.2732	-1.3965	-1.3264	1.8500	2.3487	1.0158	2.3012	-2.3330	-0.7636	-0.5641	0.2714	1.4629	0.8941	-0.8401	-1.0476	2.5764	2.5576	2.2158	1.6835	-2.7680	-1.8196	-0.5127	0.0638	3.6989	3.5586	1.2516	-1.4350	-1.3714	1.9013	2.3862	1.0284	2.2955	-2.3609	-0.7718	-0.5364	0.3213	1.4345	0.8646	-0.8773	-1.0938	2.6056	2.5967	2.2453	1.7041	
-0.1333	 4.94408321737183E-0004	-0.4187	-2.0635	-1.3002	-0.2289	0.2108	3.2253	2.6546	1.0150	-1.1035	-0.7086	1.6237	2.0085	0.4834	1.6322	-1.5593	-0.2428	-0.4135	0.1915	1.0509	0.8001	-0.4187	-0.4635	2.2634	2.1095	1.7846	1.2757	-2.0930	-1.3158	-0.2178	0.2399	3.2194	2.6345	1.0010	-1.1301	-0.7394	1.6576	2.0341	0.4930	1.6281	-1.5789	-0.2494	-0.3957	0.2250	1.0328	0.7808	-0.4445	-0.4963	2.2821	2.1373	1.8053	1.2900	
-0.0667	 1.12666398358116E-0004	0.0161	-1.3754	-0.7860	0.0780	0.4013	2.7272	1.6816	0.7535	-0.7964	-0.0648	1.3844	1.6527	-0.0672	0.9395	-0.7541	0.2951	-0.2584	0.1096	0.6237	0.7023	0.0161	0.1410	1.9411	1.6447	1.3355	0.8506	-1.3886	-0.7941	0.0828	0.4143	2.7222	1.6721	0.7471	-0.8096	-0.0791	1.3981	1.6645	-0.0621	0.9355	-0.7635	0.2912	-0.2503	0.1255	0.6159	0.6937	0.0030	0.1223	1.9471	1.6591	1.3463	0.8573	
0.0000	 7.91864756037180E-0006	0.4808	-0.6344	-0.2354	0.4022	0.5999	2.1909	0.6354	0.4774	-0.4639	0.6297	1.1218	1.2670	-0.6574	0.1943	0.1139	0.8697	-0.0924	0.0213	0.1655	0.5984	0.4808	0.7885	1.5938	1.1451	0.8532	0.3934	-0.6310	-0.2346	0.4004	0.5960	2.1882	0.6369	0.4788	-0.4622	0.6316	1.1147	1.2645	-0.6574	0.1936	0.1137	0.8693	-0.0946	0.0188	0.1699	0.6009	0.4817	0.7850	1.5876	1.1445	0.8522	0.3921	
0.0667	 1.79411928793819E-0004	0.9418	0.0994	0.3094	0.7210	0.7934	1.6547	-0.4019	0.2060	-0.1313	1.3180	0.8561	0.8811	-1.2417	-0.5454	0.9737	1.4389	0.0708	-0.0674	-0.2872	0.4975	0.9418	1.4249	1.2454	0.6469	0.3740	-0.0585	0.1180	0.3184	0.7137	0.7742	1.6560	-0.3898	0.2149	-0.1158	1.3345	0.8315	0.8650	-1.2468	-0.5431	0.9824	1.4416	0.0597	-0.0865	-0.2725	0.5099	0.9561	1.4381	1.2296	0.6322	0.3622	-0.0671	
0.1333	 5.65368401864364E-0004	1.4038	0.8287	0.8526	1.0398	0.9837	1.1148	-1.4395	-0.0654	0.2023	2.0020	0.5868	0.4927	-1.8254	-1.2818	1.8260	2.0056	0.2327	-0.1580	-0.7360	0.3975	1.4038	2.0568	0.8922	0.1462	-0.1045	-0.5078	0.8625	0.8688	1.0273	0.9537	1.1199	-1.4178	-0.0499	0.2293	2.0349	0.5473	0.4651	-1.8347	-1.2796	1.8474	2.0120	0.2136	-0.1924	-0.7144	0.4191	1.4297	2.0894	0.8692	0.1191	-0.1257	-0.5240	
0.2000	 1.21926359828992E-0003	1.8567	1.5369	1.3818	1.3548	1.1800	0.5825	-2.4558	-0.3357	0.5267	2.6663	0.3276	0.1138	-2.3955	-2.0036	2.6566	2.5591	0.3920	-0.2472	-1.1766	0.2992	1.8567	2.6748	0.5438	-0.3461	-0.5695	-0.9415	1.5867	1.4057	1.3372	1.1358	0.5897	-2.4248	-0.3129	0.5668	2.7152	0.2706	0.0738	-2.4094	-2.0014	2.6891	2.5683	0.3638	-0.2981	-1.1470	0.3307	1.8953	2.7228	0.5100	-0.3871	-0.6011	-0.9655	
