Arquivo: c:\arq\medidas\BBA_2003_073142\BBA_AMP01A_V.dat
Data: 2003	 Hora:  0847
Comentário: 
NomeParametro	 ValorParametro
Nmedias	5
PausaCorretora	3000
PausaShunt	2000
PausaLeitura	500
NumCiclos	3
 NPassosCor	7
DeltaShunt	3.00
TetaIni	-0.20
TetaFim	0.20
I[mA]	  28.8
ACV07B	DeltaPos^2	AMP01A	AMP01B_0	AMP02A_0	AMP02B_0	AMP03A_0	AMP03B_0	AMP03C_0	AMP04A_0	AMP04B_0	AMP05A_0	AMP05B_0	AMP06A_0	AMP06B_0	AMP07A_0	AMP07B_0	AMP08A_0	AMP08B_0	AMP09A_0	AMP09B_0	AMP10A_0	AMP10B_0	AMU11A_0	AMU11B_0	AMP12A_0	AMP12B_0	AMP01A_0	AMP01B_1	AMP02A_1	AMP02B_1	AMP03A_1	AMP03B_1	AMP03C_1	AMP04A_1	AMP04B_1	AMP05A_1	AMP05B_1	AMP06A_1	AMP06B_1	AMP07A_1	AMP07B_1	AMP08A_1	AMP08B_1	AMP09A_1	AMP09B_1	AMP10A_1	AMP10B_1	AMU11A_1	AMU11B_1	AMP12A_1	AMP12B_1	AMP01A_1	
-0.2000	 3.24864254951306E-0002	2.4764	-3.1643	-1.8798	0.1539	1.2072	3.1372	2.0390	0.5193	-2.0585	-1.9234	2.9448	2.9601	0.8416	1.6269	-2.4012	-0.9429	-1.1031	-0.4922	2.1734	1.4392	-0.5454	-1.0046	2.0650	2.3428	2.6247	2.4764	-3.3197	-2.0357	-0.0030	1.0448	3.3428	2.4827	0.6680	-2.0986	-2.0726	2.9268	3.0190	1.0299	1.8992	-2.6444	-1.1337	-1.2165	-0.5580	2.3896	1.5354	-0.6476	-1.1897	2.1054	2.4612	2.8090	2.7025	
-0.1333	 1.74500062183451E-0002	1.8289	-2.3802	-1.3647	0.2390	1.0283	2.8339	1.5826	0.4988	-1.5648	-1.1298	2.3833	2.4370	0.3727	1.1759	-1.6199	-0.3722	-0.7772	-0.3176	1.5343	1.1663	-0.2290	-0.4448	1.9273	1.9766	2.0754	1.8289	-2.4987	-1.4800	0.1279	0.9152	2.9840	1.9040	0.6035	-1.5984	-1.2442	2.3757	2.4839	0.5113	1.3757	-1.8021	-0.5127	-0.8589	-0.3637	1.6931	1.2357	-0.3051	-0.5815	1.9584	2.0644	2.2113	1.9962	
-0.0667	 5.26587379215749E-0003	1.1315	-1.5312	-0.8100	0.3325	0.8395	2.5048	1.0854	0.4737	-1.0358	-0.2745	1.7816	1.8734	-0.1362	0.6813	-0.7712	0.2405	-0.4326	-0.1392	0.8517	0.8789	0.1155	0.1595	1.7736	1.5778	1.4816	1.1315	-1.5979	-0.8734	0.2725	0.7790	2.5867	1.2610	0.5304	-1.0551	-0.3384	1.7783	1.9000	-0.0598	0.7911	-0.8723	0.1635	-0.4771	-0.1644	0.9393	0.9168	0.0735	0.0844	1.7907	1.6261	1.5567	1.2240	
0.0000	 6.44026236340477E-0005	0.4166	-0.6581	-0.2412	0.4305	0.6498	2.1629	0.5698	0.4457	-0.4940	0.6010	1.1667	1.2953	-0.6611	0.1676	0.1039	0.8687	-0.0836	0.0372	0.1548	0.5885	0.4707	0.7795	1.6125	1.1658	0.8717	0.4166	-0.6653	-0.2479	0.4239	0.6430	2.1719	0.5895	0.4520	-0.4956	0.5945	1.1656	1.2976	-0.6530	0.1804	0.0928	0.8600	-0.0889	0.0333	0.1652	0.5931	0.4665	0.7720	1.6132	1.1704	0.8798	0.4267	
0.0667	 3.51107114621790E-0003	-0.3100	0.2309	0.3377	0.5312	0.4581	1.8122	0.0418	0.4163	0.0575	1.4878	0.5415	0.7044	-1.1965	-0.3592	0.9946	1.5071	0.2705	0.2138	-0.5529	0.2952	0.8346	1.4088	1.4443	0.7426	0.2486	-0.3100	0.2861	0.3901	0.5795	0.5059	1.7442	-0.1004	0.3711	0.0746	1.5417	0.5407	0.6808	-1.2590	-0.4487	1.0776	1.5698	0.3062	0.2319	-0.6233	0.2659	0.8697	1.4711	1.4287	0.7011	0.1865	-0.3850	
0.1333	 1.52258698004041E-0002	-1.0386	1.1192	0.9164	0.6333	0.2664	1.4576	-0.4898	0.3864	0.6083	2.3700	-0.0870	0.1124	-1.7311	-0.8873	1.8831	2.1435	0.6257	0.3923	-1.2622	0.0001	1.1985	2.0382	1.2778	0.3179	-0.3757	-1.0386	1.2322	1.0248	0.7350	0.3685	1.3157	-0.7885	0.2912	0.6433	2.4798	-0.0858	0.0640	-1.8607	-1.0740	2.0538	2.2733	0.7002	0.4313	-1.4088	-0.0623	1.2718	2.1663	1.2454	0.2319	-0.5048	-1.1945	
0.2000	 3.28778175350287E-0002	-1.7509	1.9859	1.4838	0.7332	0.0772	1.1079	-1.0107	0.3579	1.1496	3.2251	-0.7058	-0.4705	-2.2513	-1.4006	2.7441	2.7633	0.9774	0.5734	-1.9594	-0.2931	1.5533	2.6500	1.1146	-0.0981	-0.9882	-1.7509	2.1475	1.6411	0.8849	0.2318	0.8963	-1.4540	0.2147	1.1989	3.3817	-0.7001	-0.5397	-2.4404	-1.6755	2.9921	2.9522	1.0876	0.6326	-2.1741	-0.3860	1.6606	2.8360	1.0671	-0.2243	-1.1767	-1.9788	
