Arquivo: c:\arq\medidas\BBA_2003_073142\BBA_AMP10A_H.dat
Data: 2003	 Hora:  0827
Comentário: 
NomeParametro	 ValorParametro
Nmedias	5
PausaCorretora	3000
PausaShunt	2000
PausaLeitura	500
NumCiclos	3
 NPassosCor	7
DeltaShunt	3.00
TetaIni	-0.20
TetaFim	0.20
I[mA]	  28.9
ACH03A	DeltaPos^2	AMP10A	AMP01B_0	AMP02A_0	AMP02B_0	AMP03A_0	AMP03B_0	AMP03C_0	AMP04A_0	AMP04B_0	AMP05A_0	AMP05B_0	AMP06A_0	AMP06B_0	AMP07A_0	AMP07B_0	AMP08A_0	AMP08B_0	AMP09A_0	AMP09B_0	AMP10A_0	AMP10B_0	AMU11A_0	AMU11B_0	AMP12A_0	AMP12B_0	AMP01A_0	AMP01B_1	AMP02A_1	AMP02B_1	AMP03A_1	AMP03B_1	AMP03C_1	AMP04A_1	AMP04B_1	AMP05A_1	AMP05B_1	AMP06A_1	AMP06B_1	AMP07A_1	AMP07B_1	AMP08A_1	AMP08B_1	AMP09A_1	AMP09B_1	AMP10A_1	AMP10B_1	AMU11A_1	AMU11B_1	AMP12A_1	AMP12B_1	AMP01A_1	
-0.2000	 1.01634181120170E-0003	-1.1073	-0.3849	1.0522	-2.0565	-1.8560	-2.8558	-3.2684	-0.0859	0.4325	-1.6959	-0.9701	0.0868	-0.8097	1.1510	0.6138	-1.4497	-0.5453	2.0726	2.1263	-1.1073	-1.8468	2.0526	2.6142	-0.9673	-1.9187	-0.1677	-0.3812	1.0190	-2.0752	-1.7985	-2.8059	-3.2546	-0.1232	0.3960	-1.6448	-0.9143	0.0587	-0.8445	1.1689	0.6452	-1.4577	-0.5677	2.0434	2.1122	-1.0962	-1.8289	2.0168	2.5660	-0.9802	-1.9152	-0.1493	
-0.1333	 4.31819562947542E-0004	-0.8107	-0.6109	0.8956	-2.0358	-1.3640	-2.2797	-3.0184	-0.1629	0.2064	-1.6976	-0.7919	0.2484	-0.8109	0.6750	0.2857	-1.1359	-0.3235	1.3943	1.4759	-0.8107	-1.5223	1.5117	1.9784	-0.8603	-1.6662	-0.2037	-0.6145	0.8762	-2.0436	-1.3295	-2.2511	-3.0111	-0.1856	0.1848	-1.6642	-0.7568	0.2299	-0.8322	0.6865	0.3050	-1.1396	-0.3376	1.3709	1.4633	-0.8010	-1.5088	1.4811	1.9402	-0.8647	-1.6608	-0.1995	
-0.0667	 7.40461001426868E-0005	-0.5100	-0.8450	0.7401	-2.0109	-0.8706	-1.6987	-2.7670	-0.2391	-0.0202	-1.7004	-0.6145	0.4114	-0.8110	0.1945	-0.0462	-0.8183	-0.0996	0.7040	0.8149	-0.5100	-1.1937	0.9588	1.3282	-0.7488	-1.4092	-0.2477	-0.8420	0.7303	-2.0169	-0.8555	-1.6850	-2.7629	-0.2497	-0.0309	-1.6865	-0.5992	0.4036	-0.8210	0.2009	-0.0362	-0.8211	-0.1061	0.6988	0.8138	-0.5079	-1.1892	0.9522	1.3180	-0.7536	-1.4093	-0.2406	
0.0000	 1.15082252714083E-0005	-0.2083	-1.0861	0.5880	-1.9820	-0.3821	-1.1222	-2.5168	-0.3133	-0.2445	-1.7064	-0.4409	0.5748	-0.8092	-0.2853	-0.3795	-0.5011	0.1246	0.0108	0.1517	-0.2083	-0.8645	0.3981	0.6706	-0.6328	-1.1491	-0.3006	-1.0833	0.5891	-1.9826	-0.3848	-1.1229	-2.5170	-0.3111	-0.2428	-1.7111	-0.4449	0.5773	-0.8071	-0.2882	-0.3819	-0.5012	0.1262	0.0154	0.1542	-0.2111	-0.8673	0.4063	0.6788	-0.6345	-1.1516	-0.2972	
0.0667	 1.65747048595401E-0004	0.0935	-1.3330	0.4399	-1.9487	0.0988	-0.5519	-2.2691	-0.3844	-0.4656	-1.7156	-0.2727	0.7384	-0.8052	-0.7623	-0.7130	-0.1846	0.3485	-0.6790	-0.5085	0.0935	-0.5360	-0.1652	0.0103	-0.5135	-0.8871	-0.3618	-1.3289	0.4503	-1.9457	0.0826	-0.5628	-2.2720	-0.3706	-0.4528	-1.7378	-0.2935	0.7509	-0.7919	-0.7765	-0.7294	-0.1820	0.3579	-0.6676	-0.5055	0.0857	-0.5452	-0.1430	0.0354	-0.5131	-0.8926	-0.3599	
0.1333	 6.16657876950063E-0004	0.3897	-1.5724	0.2866	-1.9233	0.5895	0.0334	-2.0153	-0.4588	-0.6916	-1.7272	-0.1012	0.9031	-0.8037	-1.2459	-1.0506	0.1297	0.5722	-1.3668	-1.1699	0.3897	-0.2105	-0.7186	-0.6431	-0.4013	-0.6317	-0.4096	-1.5826	0.3146	-1.9044	0.5452	-0.0064	-2.0276	-0.4284	-0.6610	-1.7669	-0.1450	0.9247	-0.7753	-1.2641	-1.0784	0.1375	0.5901	-1.3518	-1.1664	0.3834	-0.2224	-0.6986	-0.6135	-0.3875	-0.6306	-0.4311	
0.2000	 1.30742222826406E-0003	0.6886	-1.8234	0.1407	-1.8888	1.0666	0.6030	-1.7662	-0.5283	-0.9115	-1.7413	0.0638	1.0677	-0.7983	-1.7242	-1.3872	0.4432	0.7953	-2.0513	-1.8269	0.6886	0.1159	-1.2802	-1.3018	-0.2811	-0.3708	-0.4749	-1.8395	0.1823	-1.8605	1.0011	0.5427	-1.7844	-0.4843	-0.8668	-1.7982	-0.0002	1.0982	-0.7570	-1.7482	-1.4257	0.4540	0.8206	-2.0296	-1.8206	0.6801	0.0983	-1.2532	-1.2602	-0.2598	-0.3684	-0.5084	
