Arquivo: c:\arq\medidas\BBA_2003_073142\BBA_AMP05B_V.dat
Data: 2003	 Hora:  0801
Comentário: 
NomeParametro	 ValorParametro
Nmedias	5
PausaCorretora	3000
PausaShunt	2000
PausaLeitura	500
NumCiclos	3
 NPassosCor	7
DeltaShunt	3.00
TetaIni	-0.20
TetaFim	0.20
I[mA]	  55.6
ACV11A	DeltaPos^2	AMP05B	AMP01B_0	AMP02A_0	AMP02B_0	AMP03A_0	AMP03B_0	AMP03C_0	AMP04A_0	AMP04B_0	AMP05A_0	AMP05B_0	AMP06A_0	AMP06B_0	AMP07A_0	AMP07B_0	AMP08A_0	AMP08B_0	AMP09A_0	AMP09B_0	AMP10A_0	AMP10B_0	AMU11A_0	AMU11B_0	AMP12A_0	AMP12B_0	AMP01A_0	AMP01B_1	AMP02A_1	AMP02B_1	AMP03A_1	AMP03B_1	AMP03C_1	AMP04A_1	AMP04B_1	AMP05A_1	AMP05B_1	AMP06A_1	AMP06B_1	AMP07A_1	AMP07B_1	AMP08A_1	AMP08B_1	AMP09A_1	AMP09B_1	AMP10A_1	AMP10B_1	AMU11A_1	AMU11B_1	AMP12A_1	AMP12B_1	AMP01A_1	
-0.2000	 1.87601625508745E-0002	2.9272	-2.7249	-1.4720	0.5158	1.5594	2.6341	0.9579	0.1790	-1.9090	-1.4929	2.9272	2.7697	0.3440	0.8900	-1.8065	-0.0100	0.6166	1.7013	-0.3166	-0.2688	-1.0607	-0.8943	2.2914	2.3557	2.2551	1.8614	-2.8090	-1.4746	0.6446	1.7729	2.5202	0.6505	0.0387	-2.0172	-1.5806	3.1114	2.9211	0.4523	0.9744	-2.0034	-0.1050	0.6784	1.8582	-0.3502	-0.3466	-1.2130	-1.0388	2.4539	2.5017	2.2940	1.8337	
-0.1333	 1.01429970996514E-0002	2.3458	-2.0275	-1.0517	0.4958	1.2661	2.4653	0.7985	0.2592	-1.4330	-0.7869	2.3458	2.2754	-0.0045	0.6219	-1.1722	0.2938	0.4138	1.1894	-0.2041	-0.0156	-0.5670	-0.3461	2.0764	1.9648	1.7835	1.3557	-2.0919	-1.0551	0.5887	1.4222	2.3832	0.5769	0.1575	-1.5135	-0.8541	2.4822	2.3881	0.0760	0.6852	-1.3192	0.2233	0.4586	1.3047	-0.2275	-0.0720	-0.6798	-0.4541	2.1961	2.0738	1.8141	1.3371	
-0.0667	 3.75774081031249E-0003	1.7421	-1.3020	-0.6158	0.4757	0.9638	2.2882	0.6313	0.3414	-0.9401	-0.0550	1.7421	1.7618	-0.3681	0.3392	-0.5106	0.6119	0.2094	0.6640	-0.0961	0.2415	-0.0563	0.2226	1.8508	1.5571	1.2945	0.8327	-1.3417	-0.6184	0.5319	1.0587	2.2393	0.4976	0.2797	-0.9894	-0.0966	1.8257	1.8307	-0.3188	0.3783	-0.6009	0.5682	0.2362	0.7336	-0.1099	0.2071	-0.1251	0.1566	1.9237	1.6234	1.3133	0.8217	
0.0000	 3.90306477194759E-0004	1.1236	-0.5559	-0.1687	0.4570	0.6559	2.1046	0.4565	0.4231	-0.4350	0.6942	1.1236	1.2346	-0.7431	0.0450	0.1701	0.9401	0.0040	0.1307	0.0070	0.5005	0.4672	0.8069	1.6165	1.1351	0.7909	0.2970	-0.5684	-0.1694	0.4751	0.6866	2.0890	0.4136	0.4031	-0.4506	0.6807	1.1507	1.2568	-0.7271	0.0580	0.1410	0.9260	0.0125	0.1530	0.0028	0.4897	0.4450	0.7854	1.6399	1.1569	0.7967	0.2932	
0.0667	 4.93098284633503E-0004	0.4978	0.1982	0.2839	0.4392	0.3454	1.9168	0.2769	0.5049	0.0758	1.4483	0.4978	0.6993	-1.1233	-0.2557	0.8595	1.2735	-0.2011	-0.4065	0.1081	0.7610	0.9969	1.3960	1.3775	0.7058	0.2802	-0.2445	0.2136	0.2853	0.4193	0.3110	1.9344	0.3241	0.5269	0.0941	1.4636	0.4669	0.6737	-1.1415	-0.2701	0.8924	1.2889	-0.2110	-0.4320	0.1125	0.7729	1.0221	1.4193	1.3509	0.6815	0.2726	-0.2417	
0.1333	 4.02572853507306E-0003	-0.1302	0.9525	0.7364	0.4231	0.0361	1.7265	0.0935	0.5853	0.5854	2.1987	-0.1302	0.1637	-1.5034	-0.5572	1.5474	1.6061	-0.4062	-0.9433	0.2078	1.0207	1.5256	1.9843	1.1405	0.2761	-0.2317	-0.7891	0.9947	0.7394	0.3652	-0.0626	1.7774	0.2309	0.6486	0.6366	2.2410	-0.2177	0.0917	-1.5546	-0.5980	1.6406	1.6510	-0.4339	-1.0153	0.2210	1.0552	1.5963	2.0517	1.0640	0.2065	-0.2517	-0.7790	
0.2000	 1.05059148140779E-0002	-0.7510	1.6966	1.1849	0.4083	-0.2688	1.5362	-0.0907	0.6647	1.0891	2.9330	-0.7510	-0.3662	-1.8774	-0.8537	2.2226	1.9338	-0.6102	-1.4742	0.3080	1.2781	2.0461	2.5622	0.9065	-0.1480	-0.7383	-1.3278	1.7625	1.1886	0.3137	-0.4289	1.6195	0.1345	0.7676	1.1709	2.9990	-0.8916	-0.4826	-1.9597	-0.9199	2.3713	2.0060	-0.6546	-1.5903	0.3294	1.3337	2.1595	2.6693	0.7825	-0.2602	-0.7694	-1.3095	
