Arquivo: c:\arq\medidas\BBA_2003_073142\BBA_AMP10A_V.dat
Data: 2003	 Hora:  0829
Comentário: 
NomeParametro	 ValorParametro
Nmedias	5
PausaCorretora	3000
PausaShunt	2000
PausaLeitura	500
NumCiclos	3
 NPassosCor	7
DeltaShunt	3.00
TetaIni	-0.20
TetaFim	0.20
I[mA]	  28.9
ACV11A	DeltaPos^2	AMP10A	AMP01B_0	AMP02A_0	AMP02B_0	AMP03A_0	AMP03B_0	AMP03C_0	AMP04A_0	AMP04B_0	AMP05A_0	AMP05B_0	AMP06A_0	AMP06B_0	AMP07A_0	AMP07B_0	AMP08A_0	AMP08B_0	AMP09A_0	AMP09B_0	AMP10A_0	AMP10B_0	AMU11A_0	AMU11B_0	AMP12A_0	AMP12B_0	AMP01A_0	AMP01B_1	AMP02A_1	AMP02B_1	AMP03A_1	AMP03B_1	AMP03C_1	AMP04A_1	AMP04B_1	AMP05A_1	AMP05B_1	AMP06A_1	AMP06B_1	AMP07A_1	AMP07B_1	AMP08A_1	AMP08B_1	AMP09A_1	AMP09B_1	AMP10A_1	AMP10B_1	AMU11A_1	AMU11B_1	AMP12A_1	AMP12B_1	AMP01A_1	
-0.2000	 8.23568717688601E-0004	-0.1890	-2.9287	-1.5889	0.5240	1.6407	2.6812	1.0108	0.1570	-2.0470	-1.6931	3.0880	2.9052	0.4572	1.0245	-1.9317	-0.1063	0.5390	1.6500	-0.1411	-0.1890	-1.1325	-1.0282	2.3244	2.4449	2.3935	2.0346	-2.9245	-1.5763	0.5522	1.6789	2.6483	0.9356	0.1276	-2.0563	-1.6893	3.1101	2.9125	0.4355	0.9834	-1.9085	-0.0825	0.5663	1.6789	-0.1844	-0.2149	-1.1550	-1.0431	2.3531	2.4654	2.3871	2.0116	
-0.1333	 4.15441882139881E-0004	0.0609	-2.1975	-1.1526	0.4930	1.3184	2.5151	0.8692	0.2515	-1.5440	-0.9507	2.4673	2.3857	0.0966	0.7518	-1.2756	0.2097	0.3391	1.1327	-0.0472	0.0609	-0.6159	-0.4471	2.0902	2.0306	1.9016	1.5093	-2.1950	-1.1438	0.5130	1.3453	2.4917	0.8160	0.2305	-1.5508	-0.9485	2.4834	2.3908	0.0816	0.7229	-1.2596	0.2266	0.3588	1.1533	-0.0777	0.0423	-0.6324	-0.4584	2.1111	2.0456	1.8972	1.4932	
-0.0667	 1.46372385465537E-0004	0.3140	-1.4314	-0.6973	0.4625	0.9855	2.3393	0.7171	0.3474	-1.0203	-0.1761	1.8204	1.8423	-0.2823	0.4603	-0.5862	0.5439	0.1396	0.6011	0.0392	0.3140	-0.0791	0.1599	1.8431	1.5947	1.3874	0.9629	-1.4294	-0.6921	0.4745	1.0013	2.3246	0.6853	0.3352	-1.0243	-0.1742	1.8293	1.8450	-0.2912	0.4427	-0.5765	0.5537	0.1510	0.6132	0.0215	0.3032	-0.0888	0.1531	1.8546	1.6034	1.3847	0.9529	
0.0000	 1.08019435778633E-0005	0.5676	-0.6414	-0.2286	0.4343	0.6475	2.1558	0.5541	0.4431	-0.4824	0.6203	1.1569	1.2831	-0.6756	0.1537	0.1273	0.8907	-0.0600	0.0620	0.1182	0.5676	0.4722	0.7857	1.5875	1.1436	0.8572	0.4005	-0.6395	-0.2266	0.4371	0.6499	2.1492	0.5454	0.4400	-0.4828	0.6214	1.1565	1.2827	-0.6783	0.1483	0.1300	0.8934	-0.0574	0.0642	0.1144	0.5651	0.4700	0.7824	1.5877	1.1452	0.8557	0.3970	
0.0667	 3.95198033077461E-0005	0.8214	0.1609	0.2472	0.4075	0.3067	1.9663	0.3844	0.5380	0.0621	1.4246	0.4830	0.7146	-1.0759	-0.1616	0.8533	1.2444	-0.2587	-0.4812	0.1925	0.8214	1.0309	1.4188	1.3274	0.6837	0.3175	-0.1701	0.1613	0.2461	0.4012	0.2964	1.9682	0.3987	0.5443	0.0656	1.4233	0.4750	0.7110	-1.0727	-0.1550	0.8470	1.2402	-0.2650	-0.4869	0.2017	0.8273	1.0360	1.4175	1.3163	0.6781	0.3172	-0.1660	
0.1333	 2.20984496629229E-0004	1.0751	0.9640	0.7238	0.3823	-0.0342	1.7721	0.2097	0.6315	0.6060	2.2259	-0.1941	0.1443	-1.4763	-0.4795	1.5787	1.5981	-0.4570	-1.0239	0.2655	1.0751	1.5883	2.0504	1.0659	0.2223	-0.2241	-0.7450	0.9610	0.7184	0.3673	-0.0558	1.7848	0.2471	0.6467	0.6124	2.2209	-0.2070	0.1392	-1.4663	-0.4597	1.5623	1.5867	-0.4714	-1.0371	0.2874	1.0883	1.6000	2.0519	1.0465	0.2107	-0.2221	-0.7321	
0.2000	 5.10977524983942E-0004	1.3262	1.7528	1.1957	0.3581	-0.3705	1.5771	0.0355	0.7241	1.1432	3.0041	-0.8617	-0.4198	-1.8702	-0.7905	2.2843	1.9453	-0.6546	-1.5580	0.3402	1.3262	2.1363	2.6639	0.8063	-0.2330	-0.7595	-1.3107	1.7477	1.1856	0.3355	-0.4014	1.6007	0.0939	0.7471	1.1510	2.9986	-0.8793	-0.4251	-1.8532	-0.7582	2.2632	1.9268	-0.6762	-1.5792	0.3741	1.3462	2.1535	2.6723	0.7811	-0.2494	-0.7546	-1.2913	
