Arquivo: c:\arq\medidas\BBA_2003_073142\BBA_AMP03B_H.dat
Data: 2003	 Hora:  0744
Comentário: 
NomeParametro	 ValorParametro
Nmedias	5
PausaCorretora	3000
PausaShunt	2000
PausaLeitura	500
NumCiclos	3
 NPassosCor	7
DeltaShunt	3.00
TetaIni	-0.20
TetaFim	0.20
I[mA]	 106.9
ACH09B	DeltaPos^2	AMP03B	AMP01B_0	AMP02A_0	AMP02B_0	AMP03A_0	AMP03B_0	AMP03C_0	AMP04A_0	AMP04B_0	AMP05A_0	AMP05B_0	AMP06A_0	AMP06B_0	AMP07A_0	AMP07B_0	AMP08A_0	AMP08B_0	AMP09A_0	AMP09B_0	AMP10A_0	AMP10B_0	AMU11A_0	AMU11B_0	AMP12A_0	AMP12B_0	AMP01A_0	AMP01B_1	AMP02A_1	AMP02B_1	AMP03A_1	AMP03B_1	AMP03C_1	AMP04A_1	AMP04B_1	AMP05A_1	AMP05B_1	AMP06A_1	AMP06B_1	AMP07A_1	AMP07B_1	AMP08A_1	AMP08B_1	AMP09A_1	AMP09B_1	AMP10A_1	AMP10B_1	AMU11A_1	AMU11B_1	AMP12A_1	AMP12B_1	AMP01A_1	
-0.2000	 1.94727515471661E-0002	1.2450	0.7626	-0.4773	-2.9235	1.7580	1.2450	-1.5715	-0.8238	-1.2128	-1.1708	0.7432	0.9582	-1.0557	-1.6716	-1.1473	0.5649	0.7715	-2.4104	-2.1261	-0.1020	-0.0534	0.8760	0.5768	-1.4539	-1.3569	1.9153	0.7461	-0.3871	-2.8875	1.5339	1.0496	-1.6612	-0.8297	-1.1516	-1.0900	0.7520	0.8635	-1.0928	-1.4263	-0.9420	0.4368	0.6587	-2.1517	-1.8511	-0.1879	-0.1760	1.0103	0.7632	-1.4472	-1.4172	1.8313	
-0.1333	 8.89643700373858E-0003	0.4695	0.1524	-0.1158	-2.6035	1.0516	0.4695	-1.8759	-0.6248	-0.8779	-1.4079	0.3096	0.8762	-0.9409	-1.3069	-0.9797	0.2564	0.6071	-1.6711	-1.4514	-0.1241	-0.2858	0.7243	0.6039	-1.1743	-1.2763	1.1957	0.1419	-0.0557	-2.5795	0.9011	0.3388	-1.9353	-0.6289	-0.8372	-1.3523	0.3171	0.8120	-0.9664	-1.1410	-0.8404	0.1693	0.5303	-1.4950	-1.2647	-0.1816	-0.3681	0.8149	0.7295	-1.1704	-1.3168	1.1395	
-0.0667	 2.32852249076011E-0003	-0.3176	-0.4697	0.2489	-2.2776	0.3331	-0.3176	-2.1826	-0.4238	-0.5398	-1.6472	-0.1285	0.7935	-0.8247	-0.9391	-0.8112	-0.0556	0.4408	-0.9216	-0.7691	-0.1432	-0.5186	0.5645	0.6251	-0.8896	-1.1916	0.4590	-0.4730	0.2784	-2.2662	0.2592	-0.3813	-2.2115	-0.4268	-0.5201	-1.6169	-0.1222	0.7601	-0.8384	-0.8533	-0.7390	-0.1003	0.4016	-0.8308	-0.6720	-0.1731	-0.5610	0.6124	0.6905	-0.8880	-1.2127	0.4321	
0.0000	 1.20120407928665E-0005	-1.1065	-1.0969	0.6136	-1.9489	-0.3890	-1.1065	-2.4885	-0.2222	-0.2013	-1.8881	-0.5679	0.7115	-0.7078	-0.5717	-0.6451	-0.3673	0.2752	-0.1716	-0.0861	-0.1597	-0.7502	0.3987	0.6405	-0.6015	-1.1040	-0.2843	-1.0934	0.6124	-1.9502	-0.3852	-1.1024	-2.4871	-0.2241	-0.2029	-1.8825	-0.5623	0.7094	-0.7101	-0.5664	-0.6392	-0.3694	0.2731	-0.1672	-0.0812	-0.1611	-0.7518	0.4030	0.6449	-0.6030	-1.1058	-0.2812	
0.0667	 2.02506307941704E-0003	-1.8923	-1.7254	0.9777	-1.6183	-1.1118	-1.8923	-2.7934	-0.0196	0.1369	-2.1317	-1.0083	0.6313	-0.5897	-0.2079	-0.4827	-0.6778	0.1113	0.5738	0.5919	-0.1727	-0.9786	0.2267	0.6491	-0.3119	-1.0135	-1.0318	-1.7149	0.9457	-1.6320	-1.0301	-1.8210	-2.7618	-0.0209	0.1137	-2.1501	-1.0031	0.6603	-0.5805	-0.2838	-0.5437	-0.6369	0.1465	0.4921	0.5056	-0.1465	-0.9398	0.1879	0.5935	-0.3160	-0.9956	-0.9989	
0.1333	 8.21782629668427E-0003	-2.6693	-2.3509	1.3391	-1.2878	-1.8296	-2.6693	-3.0956	0.1831	0.4725	-2.3781	-1.4489	0.5539	-0.4697	0.1487	-0.3271	-0.9848	-0.0496	1.3096	1.2601	-0.1825	-1.2032	0.0491	0.6509	-0.0215	-0.9201	-1.7752	-2.3324	1.2770	-1.3143	-1.6703	-2.5311	-3.0343	0.1823	0.4280	-2.4198	-1.4438	0.6136	-0.4494	-0.0070	-0.4540	-0.9023	0.0222	1.1440	1.0842	-0.1293	-1.1254	-0.0317	0.5359	-0.0289	-0.8835	-1.7126	
0.2000	 1.80833014490330E-0002	-3.4299	-2.9657	1.6952	-0.9603	-2.5359	-3.4299	-3.3935	0.3852	0.8050	-2.6266	-1.8878	0.4809	-0.3484	0.4944	-0.1808	-1.2862	-0.2058	2.0270	1.9109	-0.1887	-1.4223	-0.1333	0.6453	0.2674	-0.8246	-2.5065	-2.9363	1.6010	-1.0018	-2.3000	-3.2259	-3.3023	0.3829	0.7373	-2.6898	-1.8815	0.5688	-0.3196	0.2622	-0.3697	-1.1646	-0.1002	1.7809	1.6500	-0.1114	-1.3082	-0.2527	0.4747	0.2537	-0.7730	-2.4142	
