Arquivo: c:\arq\medidas\BBA_2003_073142\BBA_AMP03A_V.dat
Data: 2003	 Hora:  0742
Comentário: 
NomeParametro	 ValorParametro
Nmedias	5
PausaCorretora	3000
PausaShunt	2000
PausaLeitura	500
NumCiclos	3
 NPassosCor	7
DeltaShunt	3.00
TetaIni	-0.20
TetaFim	0.20
I[mA]	 107.2
ACV09A	DeltaPos^2	AMP03A	AMP01B_0	AMP02A_0	AMP02B_0	AMP03A_0	AMP03B_0	AMP03C_0	AMP04A_0	AMP04B_0	AMP05A_0	AMP05B_0	AMP06A_0	AMP06B_0	AMP07A_0	AMP07B_0	AMP08A_0	AMP08B_0	AMP09A_0	AMP09B_0	AMP10A_0	AMP10B_0	AMU11A_0	AMU11B_0	AMP12A_0	AMP12B_0	AMP01A_0	AMP01B_1	AMP02A_1	AMP02B_1	AMP03A_1	AMP03B_1	AMP03C_1	AMP04A_1	AMP04B_1	AMP05A_1	AMP05B_1	AMP06A_1	AMP06B_1	AMP07A_1	AMP07B_1	AMP08A_1	AMP08B_1	AMP09A_1	AMP09B_1	AMP10A_1	AMP10B_1	AMU11A_1	AMU11B_1	AMP12A_1	AMP12B_1	AMP01A_1	
-0.2000	 1.26955142010449E-0002	-1.2892	-0.1923	-0.4431	-0.8180	-1.2892	3.3426	3.5768	1.7663	0.3422	1.1003	-0.3896	0.5621	-0.0214	1.6420	-0.3980	0.0984	-1.3186	-1.6022	0.8540	1.4993	1.7502	1.8191	0.0981	-0.0855	0.7278	0.9361	-0.2556	-0.5320	-0.9482	-1.4570	3.3954	3.7473	1.8635	0.4620	1.2308	-0.5750	0.4461	-0.0226	1.7108	-0.3466	0.0849	-1.4344	-1.7793	1.0004	1.6191	1.8328	1.8514	-0.0279	-0.1557	0.7891	1.0751	
-0.1333	 5.92300078319942E-0003	-0.7063	-0.2679	-0.3384	-0.4270	-0.7063	2.9547	2.6249	1.3580	0.1266	1.0066	0.0433	0.7407	-0.2619	1.1374	-0.1870	0.3732	-0.9252	-1.1007	0.6147	1.2115	1.3722	1.5173	0.5532	0.2711	0.7229	0.7127	-0.3100	-0.3979	-0.5158	-0.8212	2.9903	2.7430	1.4242	0.2085	1.0955	-0.0834	0.6610	-0.2631	1.1839	-0.1518	0.3642	-1.0044	-1.2221	0.7140	1.2936	1.4288	1.5402	0.4669	0.2228	0.7637	0.8062	
-0.0667	 1.53386925083411E-0003	-0.1076	-0.3482	-0.2328	-0.0270	-0.1076	2.5559	1.6348	0.9395	-0.0950	0.9094	0.4864	0.9241	-0.5064	0.6207	0.0255	0.6533	-0.5213	-0.5836	0.3684	0.9156	0.9831	1.2073	1.0177	0.6356	0.7198	0.4869	-0.3686	-0.2627	-0.0721	-0.1668	2.5732	1.6948	0.9729	-0.0531	0.9546	0.4218	0.8831	-0.5075	0.6442	0.0438	0.6491	-0.5618	-0.6462	0.4185	0.9573	1.0125	1.2194	0.9737	0.6105	0.7400	0.5333	
0.0000	 8.72525440167037E-0007	0.4993	-0.4326	-0.1278	0.3780	0.4993	2.1497	0.6211	0.5149	-0.3191	0.8096	0.9344	1.1103	-0.7531	0.0986	0.2384	0.9356	-0.1118	-0.0585	0.1198	0.6153	0.5874	0.8923	1.4874	1.0063	0.7196	0.2607	-0.4320	-0.1274	0.3777	0.4981	2.1479	0.6193	0.5150	-0.3186	0.8106	0.9334	1.1093	-0.7540	0.0982	0.2393	0.9363	-0.1121	-0.0598	0.1189	0.6152	0.5878	0.8928	1.4863	1.0052	0.7187	0.2594	
0.0667	 1.50507431379462E-0003	1.1086	-0.5206	-0.0247	0.7838	1.1086	1.7394	-0.4024	0.0886	-0.5442	0.7101	1.3846	1.2977	-1.0004	-0.4267	0.4514	1.2185	0.3005	0.4697	-0.1302	0.3131	0.1874	0.5715	1.9588	1.3797	0.7214	0.0364	-0.4990	0.0058	0.8282	1.1650	1.7182	-0.4655	0.0543	-0.5845	0.6663	1.4470	1.3362	-1.0006	-0.4510	0.4338	1.2232	0.3400	0.5304	-0.1809	0.2713	0.1587	0.5604	2.0006	1.4030	0.6999	-0.0122	
0.1333	 5.95001809965781E-0003	1.7154	-0.6130	0.0771	1.1895	1.7154	1.3274	-1.4249	-0.3385	-0.7690	0.6106	1.8327	1.4841	-1.2474	-0.9530	0.6649	1.5013	0.7123	0.9980	-0.3774	0.0119	-0.2145	0.2475	2.4284	1.7538	0.7253	-0.1856	-0.5707	0.1372	1.2777	1.8283	1.2872	-1.5486	-0.4058	-0.8504	0.5221	1.9568	1.5621	-1.2471	-1.0004	0.6293	1.5101	0.7915	1.1194	-0.4781	-0.0709	-0.2716	0.2247	2.5118	1.8007	0.6831	-0.2809	
0.2000	 1.29008602895618E-0002	2.3153	-0.7080	0.1755	1.5900	2.3153	0.9162	-2.4304	-0.7621	-0.9913	0.5130	2.2736	1.6679	-1.4934	-1.4746	0.8777	1.7817	1.1193	1.5200	-0.6189	-0.2851	-0.6147	-0.0766	2.8913	2.1253	0.7315	-0.4031	-0.6456	0.2646	1.7199	2.4810	0.8580	-2.6089	-0.8608	-1.1118	0.3812	2.4572	1.7841	-1.4919	-1.5436	0.8241	1.7946	1.2361	1.6989	-0.7671	-0.4075	-0.6997	-0.1107	3.0140	2.1946	0.6695	-0.5437	
