Arquivo: c:\arq\medidas\BBA_2003_071015\BBA_AMP02B_V.dat
Data: 2003	 Hora:  0718
Comentário: 
NomeParametro	 ValorParametro
Nmedias	5
PausaCorretora	3000
PausaShunt	2000
PausaLeitura	500
NumCiclos	3
 NPassosCor	7
DeltaShunt	3.00
TetaIni	-0.20
TetaFim	0.20
I[mA]	 162.0
ACV09B	DeltaPos^2	AMP02B	AMP01B_0	AMP02A_0	AMP02B_0	AMP03A_0	AMP03B_0	AMP03C_0	AMP04A_0	AMP04B_0	AMP05A_0	AMP05B_0	AMP06A_0	AMP06B_0	AMP07A_0	AMP07B_0	AMP08A_0	AMP08B_0	AMP09A_0	AMP09B_0	AMP10A_0	AMP10B_0	AMU11A_0	AMU11B_0	AMP12A_0	AMP12B_0	AMP01A_0	AMP01B_1	AMP02A_1	AMP02B_1	AMP03A_1	AMP03B_1	AMP03C_1	AMP04A_1	AMP04B_1	AMP05A_1	AMP05B_1	AMP06A_1	AMP06B_1	AMP07A_1	AMP07B_1	AMP08A_1	AMP08B_1	AMP09A_1	AMP09B_1	AMP10A_1	AMP10B_1	AMU11A_1	AMU11B_1	AMP12A_1	AMP12B_1	AMP01A_1	
-0.2000	 4.53884098452353E-0001	1.3305	0.1367	0.6228	1.3305	1.5994	0.9050	-2.0801	-0.3837	-0.1897	1.5716	1.1582	0.8404	-1.8223	-1.4665	1.5063	2.0025	0.7264	0.6389	-1.3064	-0.4588	-0.0865	0.6746	2.5282	1.5681	0.1914	-0.9052	-0.7360	-0.1375	0.7645	1.1725	1.6968	-0.5006	0.1496	-0.4197	0.9245	1.1642	1.1288	-1.1016	-0.4588	0.4700	1.2659	0.4458	0.6622	-0.5865	-0.0053	0.0140	0.5068	2.1854	1.5628	0.8421	0.0998	
-0.1333	 1.04214924536318E-0001	0.8722	-0.3392	0.0985	0.8722	1.2189	1.4241	-1.0971	0.0415	-0.1855	1.3004	0.9560	0.8890	-1.3678	-0.7874	0.8969	1.5664	0.5167	0.5869	-0.8193	-0.1042	0.0819	0.6767	2.1999	1.4701	0.5703	-0.2899	-0.6420	-0.1436	0.6621	1.0092	1.7705	-0.2770	0.2299	-0.3498	0.9332	1.0799	1.0961	-1.0358	-0.3525	0.4740	1.2293	0.2965	0.4645	-0.3985	0.2027	0.2776	0.7026	1.9134	1.3057	0.7666	0.1637	
-0.0667	 2.93149401755806E-0002	0.6375	-0.3668	0.0012	0.6375	0.8751	1.7485	-0.3036	0.2751	-0.2214	1.1096	0.9056	0.9598	-1.1397	-0.3842	0.6191	1.2686	0.2150	0.2770	-0.3594	0.2570	0.3530	0.8105	1.8341	1.2253	0.6255	-0.0356	-0.5022	-0.1158	0.5215	0.7505	1.9353	0.1343	0.3698	-0.3047	0.9191	0.9690	1.0702	-0.9193	-0.1487	0.3996	1.1088	0.1012	0.1885	-0.1354	0.4123	0.4556	0.8387	1.6696	1.1336	0.7188	0.1847	
0.0000	 6.80565691888233E-0004	0.4166	-0.3944	-0.0950	0.4166	0.5528	2.0576	0.4410	0.4795	-0.2575	0.9235	0.8723	1.0390	-0.8419	-0.0040	0.3545	1.0272	-0.0433	-0.0031	0.0482	0.5762	0.6093	0.9444	1.4915	0.9837	0.6729	0.2044	-0.3680	-0.0806	0.3993	0.5070	2.0866	0.5088	0.4997	-0.2559	0.9187	0.8598	1.0396	-0.8193	0.0359	0.3350	1.0036	-0.0753	-0.0421	0.0822	0.6022	0.6168	0.9423	1.4840	0.9770	0.6676	0.1949	
0.0667	 3.09926998147240E-0002	0.1478	-0.4871	-0.2304	0.1478	0.2007	2.3985	1.3603	0.6952	-0.2988	0.7060	0.8237	1.1247	-0.5356	0.4298	0.0521	0.7670	-0.3253	-0.3244	0.5536	0.9238	0.8947	1.0780	1.0903	0.7112	0.7343	0.5367	-0.2212	-0.0383	0.2574	0.2280	2.2578	0.9324	0.6477	-0.1955	0.9268	0.7247	0.9991	-0.7083	0.2462	0.2630	0.8853	-0.2778	-0.3007	0.3291	0.8184	0.8007	1.0519	1.2808	0.7984	0.6087	0.2068	
0.1333	 2.03246879880731E-0001	-0.2681	-0.6357	-0.5191	-0.2681	-0.2819	2.8897	2.4438	1.0703	-0.3362	0.4355	0.7334	1.2195	-0.0774	1.0622	-0.4384	0.3367	-0.6827	-0.6301	1.1108	1.3712	1.1723	1.1682	0.6938	0.4828	0.9079	0.9327	-0.0619	-0.0033	0.1239	-0.0401	2.4264	1.3582	0.7888	-0.1504	0.9097	0.6291	0.9750	-0.5986	0.4405	0.2048	0.7734	-0.4801	-0.5784	0.5825	1.0460	1.0118	1.2071	1.0283	0.5943	0.5479	0.2263	
0.2000	 5.79324437190774E-0001	-0.7425	-0.8631	-0.8533	-0.7425	-0.8895	3.5264	3.7255	1.5492	-0.3614	0.0899	0.5272	1.3060	0.4285	1.8532	-1.0590	-0.1914	-1.0861	-0.9593	1.8411	1.8729	1.4323	1.1892	0.2596	0.2728	1.1750	1.4298	0.0640	-0.0143	-0.0562	-0.3344	2.6433	2.0023	0.9393	-0.1379	0.8070	0.5724	1.0048	-0.4302	0.6611	0.1202	0.6377	-0.7220	-0.8977	0.9584	1.3393	1.3159	1.4112	0.6422	0.2966	0.4863	0.3157	
